File: KI3034_UVDRS/TiO2.csv
TiO2
6/5/2025 9:34:02 AM
Wavelength (nm),%Reflectance
800.00,72.0334
798.00,71.4623
796.00,72.0925
794.00,72.0131
792.00,72.4812
790.00,72.7702
788.00,72.536
786.00,72.1421
784.00,71.5978
782.00,71.4512
780.00,73.0519
778.00,72.6331
776.00,72.3563
774.00,73.7817
772.00,73.5189
770.00,72.5612
768.00,72.491
766.00,72.9355
764.00,73.0402
762.00,72.7042
760.00,73.2906
758.00,73.3355
756.00,73.6778
754.00,73.3628
752.00,73.106
750.00,73.0646
748.00,72.5412
746.00,73.1204
744.00,73.227
742.00,72.1187
740.00,72.7552
738.00,72.9418
736.00,73.3098
734.00,72.3639
732.00,72.9937
730.00,73.2295
728.00,72.7484
726.00,72.6479
724.00,72.8
722.00,72.2882
720.00,73.0017
718.00,73.4866
716.00,72.655
714.00,73.1082
712.00,73.3812
710.00,72.821
708.00,72.5375
706.00,72.8462
704.00,72.9967
702.00,72.7394
700.00,73.1266
698.00,73.3079
696.00,73.454
694.00,72.442
692.00,72.8682
690.00,73.0156
688.00,73.0977
686.00,72.7753
684.00,72.8276
682.00,72.789
680.00,73.0857
678.00,72.9425
676.00,73.1535
674.00,73.1259
672.00,72.8256
670.00,73.3987
668.00,73.2831
666.00,73.4189
664.00,73.0508
662.00,73.1369
660.00,73.0275
658.00,73.8445
656.00,72.819
654.00,73.2452
652.00,73.1309
650.00,73.0425
648.00,72.8229
646.00,73.0722
644.00,72.5476
642.00,72.849
640.00,72.5293
638.00,72.9384
636.00,73.1828
634.00,73.2513
632.00,73.6651
630.00,72.8202
628.00,72.5457
626.00,73.8466
624.00,73.6756
622.00,72.9321
620.00,73.1774
618.00,72.5879
616.00,72.8629
614.00,72.9071
612.00,72.5253
610.00,73.121
608.00,73.1667
606.00,72.7167
604.00,73.2367
602.00,72.8713
600.00,73.031
598.00,72.8157
596.00,73.1087
594.00,73.2073
592.00,73.3615
590.00,72.76
588.00,73.2057
586.00,72.4633
584.00,73.0453
582.00,72.9576
580.00,72.6051
578.00,72.3706
576.00,72.7624
574.00,72.4785
572.00,72.4587
570.00,72.8317
568.00,72.8516
566.00,72.38
564.00,72.5166
562.00,72.8501
560.00,72.5813
558.00,72.4405
556.00,72.0899
554.00,72.609
552.00,72.7645
550.00,72.2833
548.00,72.2776
546.00,72.4861
544.00,72.0304
542.00,72.2977
540.00,72.6848
538.00,72.3403
536.00,72.1009
534.00,72.2835
532.00,72.4249
530.00,71.8082
528.00,72.581
526.00,72.5008
524.00,72.3526
522.00,72.2359
520.00,71.9161
518.00,72.4465
516.00,72.4322
514.00,72.1427
512.00,71.9859
510.00,72.1986
508.00,72.2829
506.00,72.0783
504.00,71.958
502.00,72.0828
500.00,71.7684
498.00,71.7033
496.00,72.2414
494.00,71.4653
492.00,71.9259
490.00,71.8682
488.00,71.9589
486.00,71.7266
484.00,72.1213
482.00,72.4919
480.00,72.1222
478.00,71.9091
476.00,71.9868
474.00,71.8864
472.00,72.2939
470.00,72.0648
468.00,72.0358
466.00,72.2718
464.00,72.1689
462.00,72.2009
460.00,72.3365
458.00,72.4927
456.00,72.3326
454.00,72.3147
452.00,72.6431
450.00,72.1558
448.00,72.5177
446.00,72.7686
444.00,72.5658
442.00,72.2415
440.00,72.6015
438.00,72.7253
436.00,72.5109
434.00,72.7065
432.00,72.5612
430.00,72.3897
428.00,71.9875
426.00,71.7846
424.00,71.9662
422.00,71.6842
420.00,71.7024
418.00,71.5635
416.00,71.1651
414.00,70.7372
412.00,70.0946
410.00,69.6504
408.00,67.8281
406.00,67.3116
404.00,66.6421
402.00,65.0303
400.00,63.8556
398.00,61.9828
396.00,60.2521
394.00,59.0406
392.00,57.2913
390.00,55.5713
388.00,53.5831
386.00,52.8899
384.00,51.4986
382.00,50.4392
380.00,48.51
378.00,47.6895
376.00,47.1177
374.00,46.5598
372.00,45.0878
370.00,43.4802
368.00,42.5913
366.00,41.951
364.00,40.2689
362.00,39.0277
360.00,38.6299
358.00,37.3403
356.00,36.6353
354.00,35.7918
352.00,35.3274
350.00,34.5517
348.00,34.0105
346.00,33.9334
344.00,33.3499
342.00,32.8775
340.00,32.5597
338.00,33.0379
336.00,32.2094
334.00,31.2319
332.00,31.4846
330.00,31.174
328.00,30.6207
326.00,30.4599
324.00,30.3461
322.00,30.6842
320.00,30.2279
318.00,30.2259
316.00,30.2642
314.00,30.3951
312.00,30.6364
310.00,30.5546
308.00,30.8885
306.00,30.6559
304.00,30.5656
302.00,30.7854
300.00,30.6535
298.00,30.8508
296.00,31.0959
294.00,31.1684
292.00,31.1835
290.00,31.4912
288.00,31.3791
286.00,31.6241
284.00,31.8011
282.00,31.8932
280.00,32.1015
278.00,31.9789
276.00,32.1657
274.00,32.3472
272.00,32.4385
270.00,32.7812
268.00,32.8237
266.00,33.1225
264.00,33.0541
262.00,33.2178
260.00,33.5172
258.00,33.9793
256.00,34.0569
254.00,33.8781
252.00,33.8673
250.00,34.0387
248.00,34.0069
246.00,34.6117
244.00,34.3324
242.00,34.7481
240.00,35.101
238.00,35.5165
236.00,35.9357
234.00,36.5717
232.00,37.0309
230.00,37.7388
228.00,38.7696
226.00,39.3931
224.00,40.3064
222.00,40.9488
220.00,41.1999
218.00,42.0097
216.00,42.8173
214.00,42.727
212.00,43.6895
210.00,45.2324
208.00,45.7419
206.00,46.6119
204.00,47.1737
202.00,48.2002
200.00,50.6647